Folder: Laboratorio-Avancado/1 - Espectroscopia Raman/Data

Note: README.md
# Laboratorio_Avancado_7600024
 
Neste repositório estão armazenados as apresentações e códigos elaborados na disciplina de Laboratório Avançado I (7600024), oferecida pelo IFSC.

Os experimentos realizados foram:
1. Espectroscopia Óptica - Raman
2. Ressonância Paramagnética Eletrônica
3. Velocidade da Luz
4. Franck-Hertz
5. Emissão Termoiônica

Em cada uma das pastas das práticas, você encontrará: 
- as apresentações antes e depois da realização do experimento;
- um jupyter notebook contendo a análise dos dados obtidos e a elaboração dos gráficos;
- uma pasta nomeada "csv data" contendo os arquivos necessários para rodar o jupyter notebook correspondente.

Para rodar os notebooks, basta importar todos os arquivos contendo os dados na mesma pasta que o notebook e executá-lo.

File: dest 1.csv
comp(1),comp_corrected(1),raman_shift(1),vidro(ex 350 5-5),plastico(ex 350 5-5),comp(2),comp_corrected(2),raman_shift(2),vidro(ex 400 5-5),plastico(ex 400 5-5),comp(3),comp_corrected(3),raman_shift(3),vidro(ex 450 10-10),plastico(ex 450 10-10),comp(4),comp_corrected(4),raman_shift(4),vidro(ex 500 10-10),plastico(ex 500 10-10)
339,350,0,0.331037,0.803935,389,400,0,0.492782,0.62355,439,450,0,0.733876,2.36277,489,500,0,95.0055,638.6647
341,352,162.338,0.33184,0.806697,391,402,124.378,0.497657,0.624325,441,452,98.3284,0.7349,2.38789,491,502,79.6813,93.5399,664.9199
343,354,322.841,0.332643,0.809458,393,404,247.525,0.502533,0.6251,443,454,195.791,0.735925,2.41301,493,504,158.73,82.0256,616.681
345,356,481.541,0.333446,0.812219,395,406,369.458,0.507408,0.625875,445,456,292.398,0.736949,2.43813,495,506,237.154,63.9189,507.9537
347,358,638.468,0.334249,0.81498,397,408,490.196,0.512283,0.62665,447,458,388.161,0.737973,2.46325,497,508,314.961,44.0316,366.9912
349,360,793.651,0.335052,0.817741,399,410,609.756,0.517159,0.627425,449,460,483.092,0.738998,2.48837,499,510,392.157,26.2792,229.0294
351,362,947.119,0.335856,0.820502,401,412,728.155,0.522034,0.6282,451,462,577.201,0.740022,2.51349,501,512,468.75,75.2012,530.999
353,364,1098.9,0.336659,0.823263,403,414,845.411,0.526909,0.628975,453,464,670.498,0.741046,2.5386,503,514,544.747,78.8949,557.543
355,366,1249.02,0.337462,0.826025,405,416,961.538,0.531785,0.62975,455,466,762.995,0.742071,2.56372,505,516,620.155,82.5887,584.086
357,368,1397.52,0.338265,0.828786,407,418,1076.56,0.53666,0.630525,457,468,854.701,0.743095,2.58884,507,518,694.981,86.2824,610.629
359,370,1544.4,0.339068,0.831547,409,420,1190.48,0.541535,0.6313,459,470,945.626,0.744119,2.61396,509,520,769.231,89.9762,637.172
361,372,1689.71,0.339871,0.834308,411,422,1303.32,0.546411,0.632075,461,472,1035.78,0.745143,2.63908,511,522,842.912,93.6699,663.715
363,374,1833.46,0.340674,0.837069,413,424,1415.09,0.551286,0.63285,463,474,1125.18,0.746168,2.6642,513,524,916.031,97.3636,690.258
365,376,1975.68,0.341477,0.83983,415,426,1525.82,0.556161,0.633625,465,476,1213.82,0.747192,2.68932,515,526,988.593,101.057,716.802
367,378,2116.4,0.342281,0.842591,417,428,1635.51,0.561037,0.6344,467,478,1301.72,0.748216,2.71444,517,528,1060.61,104.751,743.345
369,380,2255.64,0.343084,0.845353,419,430,1744.19,0.565912,0.635175,469,480,1388.89,0.749241,2.73956,519,530,1132.08,108.445,769.888
371,382,2393.42,0.343887,0.848114,421,432,1851.85,0.570787,0.63595,471,482,1475.33,0.750265,2.76468,521,532,1203.01,112.139,796.431
373,384,2529.76,0.34469,0.850875,423,434,1958.53,0.575663,0.636725,473,484,1561.07,0.751289,2.7898,523,534,1273.41,115.832,822.974
375,386,2664.69,0.345493,0.853636,425,436,2064.22,0.580538,0.6375,475,486,1646.09,0.752314,2.81492,525,536,1343.28,119.526,849.518
377,388,2798.23,0.346296,0.856397,427,438,2168.95,0.585413,0.638275,477,488,1730.42,0.753338,2.84004,527,538,1412.64,123.22,876.061
379,390,2930.4,0.347099,0.859158,429,440,2272.73,0.590289,0.63905,479,490,1814.06,0.754362,2.86516,529,540,1481.48,126.914,902.604
381,392,3061.22,0.347903,0.861919,431,442,2375.57,0.595164,0.639825,481,492,1897.02,0.755387,2.89028,531,542,1549.82,130.607,929.147
383,394,3190.72,0.348706,0.86468,433,444,2477.48,0.600039,0.6406,483,494,1979.31,0.756411,2.9154,533,544,1617.65,134.301,955.69
385,396,3318.9,0.349509,0.867442,435,446,2578.48,0.604915,0.641375,485,496,2060.93,0.757435,2.94052,535,546,1684.98,137.995,982.233
387,398,3445.8,0.350312,0.870203,437,448,2678.57,0.60979,0.64215,487,498,2141.9,0.75846,2.96564,537,548,1751.82,141.689,1008.78
389,400,3571.43,0.351115,0.872964,439,450,2777.78,0.614665,0.642925,489,500,2222.22,0.759484,2.99076,539,550,1818.18,145.382,1035.32
391,402,3695.81,0.351918,0.875725,441,452,2876.11,0.619541,0.6437,491,502,2301.9,0.760508,3.01588,541,552,1884.06,149.076,1061.86
393,404,3818.95,0.352721,0.878486,443,454,2973.57,0.624416,0.644476,493,504,2380.95,0.761532,3.04099,543,554,1949.46,152.77,1088.41
395,406,3940.89,0.353524,0.881247,445,456,3070.18,0.629291,0.645251,495,506,2459.38,0.762557,3.06611,545,556,2014.39,156.464,1114.95
397,408,4061.62,0.354328,0.884008,447,458,3165.94,0.634167,0.646026,497,508,2537.18,0.763581,3.09123,547,558,2078.85,160.157,1141.49
399,410,4181.18,0.355131,0.88677,449,460,3260.87,0.639042,0.646801,499,510,2614.38,0.764605,3.11635,549,560,2142.86,163.851,1168.04
401,412,4299.58,0.355934,0.889531,451,462,3354.98,0.643917,0.647576,501,512,2690.97,0.76563,3.14147,551,562,2206.41,167.545,1194.58
403,414,4416.84,0.356737,0.892292,453,464,3448.28,0.648793,0.648351,503,514,2766.97,0.766654,3.16659,553,564,2269.5,171.239,1221.12
405,416,4532.97,0.35754,0.895053,455,466,3540.77,0.653668,0.649126,505,516,2842.38,0.767678,3.19171,555,566,2332.16,174.932,1247.67
407,418,4647.98,0.358343,0.897814,457,468,3632.48,0.658543,0.649901,507,518,2917.2,0.768703,3.21683,557,568,2394.37,178.626,1274.21
409,420,4761.9,0.359146,0.900575,459,470,3723.4,0.663419,0.650676,509,520,2991.45,0.769727,3.24195,559,570,2456.14,182.32,1300.75
411,422,4874.75,0.35995,0.903336,461,472,3813.56,0.668294,0.651451,511,522,3065.13,0.770751,3.26707,561,572,2517.48,186.013,1327.29
413,424,4986.52,0.360753,0.906097,463,474,3902.95,0.673169,0.652226,513,524,3138.25,0.771776,3.29219,563,574,2578.4,189.707,1353.84
415,426,5097.25,0.361556,0.908859,465,476,3991.6,0.678045,0.653001,515,526,3210.82,0.7728,3.31731,565,576,2638.89,193.401,1380.38
417,428,5206.94,0.362359,0.91162,467,478,4079.5,0.68292,0.653776,517,528,3282.83,0.773824,3.34243,567,578,2698.96,197.095,1406.92
419,430,5315.61,0.363162,0.914381,469,480,4166.67,0.687795,0.654551,519,530,3354.3,0.774849,3.36755,569,580,2758.62,200.788,1433.47
421,432,5423.28,0.363965,0.917142,471,482,4253.11,0.692671,0.655326,521,532,3425.23,0.775873,3.39267,571,582,2817.87,204.482,1460.01
423,434,5529.95,0.364768,0.919903,473,484,4338.84,0.697546,0.656101,523,534,3495.63,0.776897,3.41779,573,584,2876.71,208.176,1486.55
425,436,5635.65,0.365571,0.922664,475,486,4423.87,0.702421,0.656876,525,536,3565.51,0.777921,3.44291,575,586,2935.15,211.87,1513.1
427,438,5740.38,0.366375,0.925425,477,488,4508.2,0.707297,0.657651,527,538,3634.86,0.778946,3.46803,577,588,2993.2,215.563,1539.64
429,440,5844.16,0.367178,0.928187,479,490,4591.84,0.712172,0.658426,529,540,3703.7,0.77997,3.49315,579,590,3050.85,219.257,1566.18
431,442,5946.99,0.367981,0.930948,481,492,4674.8,0.717047,0.659201,531,542,3772.04,0.780994,3.51826,581,592,3108.11,222.951,1592.73
433,444,6048.91,0.368784,0.933709,483,494,4757.09,0.721923,0.659976,533,544,3839.87,0.782019,3.54338,583,594,3164.98,226.645,1619.27
435,446,6149.9,0.369587,0.93647,485,496,4838.71,0.726798,0.660751,535,546,3907.2,0.783043,3.5685,585,596,3221.48,230.338,1645.81
437,448,6250,0.37039,0.939231,487,498,4919.68,0.731673,0.661526,537,548,3974.05,0.784067,3.59362,587,598,3277.59,234.032,1672.36
439,450,6349.21,0.371193,0.941992,489,500,5000,0.736549,0.662301,539,550,4040.4,0.785092,3.61874,589,600,3333.33,237.726,1698.9
441,452,6447.53,0.371997,0.944753,491,502,5079.68,0.741424,0.663076,541,552,4106.28,0.786116,3.64386,591,602,3388.7,241.42,1725.44
443,454,6545,0.3728,0.947515,493,504,5158.73,0.746299,0.663851,543,554,4171.68,0.78714,3.66898,593,604,3443.71,245.113,1751.99
445,456,6641.6,0.373603,0.950276,495,506,5237.15,0.751175,0.664626,545,556,4236.61,0.788165,3.6941,595,606,3498.35,248.807,1778.53
447,458,6737.37,0.374406,0.953037,497,508,5314.96,0.75605,0.665401,547,558,4301.08,0.789189,3.71922,597,608,3552.63,252.501,1805.07
449,460,6832.3,0.375209,0.955798,499,510,5392.16,0.760925,0.666176,549,560,4365.08,0.790213,3.74434,599,610,3606.56,256.195,1831.62
451,462,6926.41,0.376012,0.958559,501,512,5468.75,0.765801,0.666951,551,562,4428.63,0.791237,3.76946,601,612,3660.13,259.888,1858.16
453,464,7019.7,0.376815,0.96132,503,514,5544.75,0.770676,0.667726,553,564,4491.73,0.792262,3.79458,603,614,3713.36,263.582,1884.7
,,,,,,,,,,,,,,,605,616,3766.23,267.276,1911.24
,,,,,,,,,,,,,,,607,618,3818.77,270.97,1937.79
,,,,,,,,,,,,,,,609,620,3870.97,274.663,1964.33
,,,,,,,,,,,,,,,611,622,3922.83,278.357,1990.87
,,,,,,,,,,,,,,,613,624,3974.36,282.051,2017.42
,,,,,,,,,,,,,,,615,626,4025.56,285.745,2043.96
,,,,,,,,,,,,,,,617,628,4076.43,289.438,2070.5
,,,,,,,,,,,,,,,619,630,4126.98,293.132,2097.05
,,,,,,,,,,,,,,,621,632,4177.22,296.826,2123.59
,,,,,,,,,,,,,,,623,634,4227.13,300.52,2150.13
,,,,,,,,,,,,,,,625,636,4276.73,304.213,2176.68
,,,,,,,,,,,,,,,627,638,4326.02,307.907,2203.22
,,,,,,,,,,,,,,,629,640,4375,311.601,2229.76
,,,,,,,,,,,,,,,631,642,4423.68,315.295,2256.31
,,,,,,,,,,,,,,,633,644,4472.05,318.988,2282.85
,,,,,,,,,,,,,,,635,646,4520.12,322.682,2309.39
,,,,,,,,,,,,,,,637,648,4567.9,326.376,2335.94
,,,,,,,,,,,,,,,639,650,4615.38,330.069,2362.48
,,,,,,,,,,,,,,,641,652,4662.58,333.763,2389.02
,,,,,,,,,,,,,,,643,654,4709.48,337.457,2415.56
,,,,,,,,,,,,,,,645,656,4756.1,341.151,2442.11
,,,,,,,,,,,,,,,647,658,4802.43,344.844,2468.65
,,,,,,,,,,,,,,,649,660,4848.48,348.538,2495.19
,,,,,,,,,,,,,,,651,662,4894.26,352.232,2521.74
,,,,,,,,,,,,,,,653,664,4939.76,355.926,2548.28
,,,,,,,,,,,,,,,654,665,4962.41,357.773,2561.55