Folder: Laboratorio-Avancado/Espectroscopia Raman/csv data

Note: README.md
# Laboratorio_Avancado_7600024
 
Neste repositório estão armazenados as apresentações e códigos elaborados na disciplina de Laboratório Avançado I (7600024), oferecida pelo IFSC.

Os experimentos realizados foram:
1. Espectroscopia Óptica - Raman
2. Ressonância Paramagnética Eletrônica
3. Velocidade da Luz
4. Franck-Hertz
5. Emissão Termoiônica

Em cada uma das pastas das práticas, você encontrará: 
- as apresentações antes e depois da realização do experimento;
- um jupyter notebook contendo a análise dos dados obtidos e a elaboração dos gráficos;
- uma pasta nomeada "csv data" contendo os arquivos necessários para rodar o jupyter notebook correspondente.

Para rodar os notebooks, basta importar todos os arquivos contendo os dados na mesma pasta que o notebook e executá-lo.

File: agua_dest.csv
comp(1),comp_corrected(1),raman_shift(1),vidro(ex 350 5-5),plastico(ex 350 5-5),comp(2),comp_corrected(2),raman_shift(2),vidro(ex 400 5-5),plastico(ex 400 5-5),comp(3),comp_corrected(3),raman_shift(3),vidro(ex 450 10-10),plastico(ex 450 10-10),comp(4),comp_corrected(4),raman_shift(4),vidro(ex 500 10-10),plastico(ex 500 10-10)
339,350,0,97.2373,689.7720,389,400,0,160.6376,573.0379,439,450,0,232.6589,999.999,489,500,0,95.0055,638.6647
341,352,162.338,86.4997,631.3511,391,402,124.378,120.9791,431.4435,441,452,98.3284,239.2257,999.999,491,502,79.6813,93.5399,664.9199
343,354,322.841,49.5161,361.3460,393,404,247.525,59.282,209.7834,443,454,195.791,221.1162,999.999,493,504,158.73,82.0256,616.681
345,356,481.541,19.0088,140.2252,395,406,369.458,16.3748,60.135,445,456,292.398,181.7813,966.5122,495,506,237.154,63.9189,507.9537
347,358,638.468,3.2261,26.4016,397,408,490.196,2.3417,8.1273,447,458,388.161,132.6276,800.6932,497,508,314.961,44.0316,366.9912
349,360,793.651,0.6151,2.1514,399,410,609.756,0.583,1.4265,449,460,483.092,85.0612,547.7076,499,510,392.157,26.2792,229.0294
351,362,947.119,0.7320,2.2285,401,412,728.155,0.5782,1.4005,451,462,577.201,47.7368,305.5131,501,512,468.75,13.2839,120.0407
353,364,1098.9,0.7268,2.0665,403,414,845.411,0.5962,1.5839,453,464,670.498,22.5698,145.1656,503,514,544.747,5.3882,49.9787
355,366,1249.02,0.6541,2.0845,405,416,961.538,0.4858,1.35,455,466,762.995,8.7803,56.2959,505,516,620.155,1.6312,14.8595
357,368,1397.52,0.5358,1.7915,407,418,1076.56,0.5312,1.2022,457,468,854.701,2.7265,15.9748,507,518,694.981,0.3703,2.5887
359,370,1544.4,0.6613,1.7273,409,420,1190.48,0.4673,1.1207,459,470,945.626,0.8806,3.3898,509,520,769.231,0.1733,0.5389
361,372,1689.71,0.6944,1.8860,411,422,1303.32,0.4022,1.3015,461,472,1035.78,0.6169,1.7442,511,522,842.912,0.2351,0.9922
363,374,1833.46,0.6775,1.8728,413,424,1415.09,0.4669,1.0867,463,474,1125.18,0.6919,2.3863,513,524,916.031,0.2608,1.1714
365,376,1975.68,0.7252,1.9018,415,426,1525.82,0.6059,1.1929,465,476,1213.82,0.72,2.4579,515,526,988.593,0.2531,1.1263
367,378,2116.4,0.6418,1.8006,417,428,1635.51,0.5474,0.6993,467,478,1301.72,0.6845,2.3433,517,528,1060.61,0.2447,1.058
369,380,2255.64,0.7177,1.7545,419,430,1744.19,0.4187,0.7577,469,480,1388.89,0.6573,2.2401,519,530,1132.08,0.2313,0.9948
371,382,2393.42,0.6667,1.8367,421,432,1851.85,0.3924,0.5595,471,482,1475.33,0.6611,2.1953,521,532,1203.01,0.2221,0.9372
373,384,2529.76,0.6944,1.7684,423,434,1958.53,0.2121,0.6293,473,484,1561.07,0.6584,2.2018,523,534,1273.41,0.2285,0.8996
375,386,2664.69,0.7041,1.8860,425,436,2064.22,0.1275,0.7819,475,486,1646.09,0.6636,2.1662,525,536,1343.28,0.235,0.8749
377,388,2798.23,0.7004,2.1358,427,438,2168.95,0.1298,0.681,477,488,1730.42,0.6266,2.1108,527,538,1412.64,0.1939,0.8441
379,390,2930.4,0.9413,2.2047,429,440,2272.73,0.3654,0.6089,479,490,1814.06,0.5957,2.0096,529,540,1481.48,0.1369,0.7988
381,392,3061.22,1.6411,2.4046,431,442,2375.57,0.3946,0.8127,481,492,1897.02,0.555,1.9036,531,542,1549.82,0.1119,0.7557
383,394,3190.72,2.2005,2.9046,433,444,2477.48,0.4971,0.5954,483,494,1979.31,0.5173,1.8388,533,544,1617.65,0.1202,0.725
385,396,3318.9,2.3076,3.7876,435,446,2578.48,0.4542,0.8464,485,496,2060.93,0.5218,1.7796,535,546,1684.98,0.1149,0.6947
387,398,3445.8,2.1438,3.5150,437,448,2678.57,0.3829,0.8089,487,498,2141.9,0.4989,1.697,537,548,1751.82,0.1008,0.6837
389,400,3571.43,2.2104,3.1636,439,450,2777.78,0.3495,0.6821,489,500,2222.22,0.4885,1.6706,539,550,1818.18,0.1302,0.7004
391,402,3695.81,1.8247,2.5038,441,452,2876.11,0.4079,0.6889,491,502,2301.9,0.4617,1.6459,541,552,1884.06,0.1825,0.7112
393,404,3818.95,1.2924,2.1655,443,454,2973.57,0.4498,0.8372,493,504,2380.95,0.4561,1.6339,543,554,1949.46,0.2061,0.6868
395,406,3940.89,0.8266,1.9785,445,456,3070.18,0.4231,1.1692,495,506,2459.38,0.4482,1.6201,545,556,2014.39,0.188,0.6373
397,408,4061.62,0.6854,2.0128,447,458,3165.94,0.8557,1.181,497,508,2537.18,0.4449,1.5729,547,558,2078.85,0.1581,0.6038
399,410,4181.18,0.7721,2.1090,449,460,3260.87,1.1832,1.5063,499,510,2614.38,0.4317,1.5846,549,560,2142.86,0.1445,0.5896
401,412,4299.58,0.8001,2.0800,451,462,3354.98,1.2147,1.5812,501,512,2690.97,0.4492,1.5513,551,562,2206.41,0.1386,0.5721
403,414,4416.84,0.6945,2.0651,453,464,3448.28,1.1538,1.5998,503,514,2766.97,0.4725,1.5274,553,564,2269.5,0.1352,0.5587
405,416,4532.97,0.8713,2.1662,455,466,3540.77,0.9214,1.3852,505,516,2842.38,0.5134,1.5279,555,566,2332.16,0.127,0.5522
407,418,4647.98,0.9056,2.0849,457,468,3632.48,0.6292,1.3275,507,518,2917.2,0.5761,1.5237,557,568,2394.37,0.1229,0.5443
409,420,4761.9,0.7981,2.1205,459,470,3723.4,0.4709,0.8447,509,520,2991.45,0.672,1.5532,559,570,2456.14,0.1202,0.539
411,422,4874.75,0.7367,2.0407,461,472,3813.56,0.3998,0.6348,511,522,3065.13,0.7497,1.6255,561,572,2517.48,0.1205,0.5342
413,424,4986.52,0.6270,2.1791,463,474,3902.95,0.385,0.6232,513,524,3138.25,0.8086,1.7003,563,574,2578.4,0.1279,0.5296
415,426,5097.25,0.6785,2.0410,465,476,3991.6,0.3741,0.4404,515,526,3210.82,0.8807,1.7553,565,576,2638.89,0.1402,0.5302
417,428,5206.94,0.8764,1.8799,467,478,4079.5,0.4782,0.6285,517,528,3282.83,0.9392,1.8249,567,578,2698.96,0.1602,0.5335
419,430,5315.61,0.7303,1.9699,469,480,4166.67,0.4404,0.6104,519,530,3354.3,0.9623,1.8494,569,580,2758.62,0.1729,0.5328
421,432,5423.28,0.7267,1.9311,471,482,4253.11,0.2794,0.4703,521,532,3425.23,0.9652,1.8291,571,582,2817.87,0.1832,0.5318
423,434,5529.95,0.4123,1.7933,473,484,4338.84,0.32,0.3847,523,534,3495.63,0.9334,1.7953,573,584,2876.71,0.1895,0.5309
425,436,5635.65,0.5497,1.6712,475,486,4423.87,0.3274,0.3078,525,536,3565.51,0.8779,1.78,575,586,2935.15,0.1954,0.5334
427,438,5740.38,0.1776,1.6475,477,488,4508.2,0.1848,0.2447,527,538,3634.86,0.8132,1.7276,577,588,2993.2,0.205,0.5311
429,440,5844.16,0.4862,1.8413,479,490,4591.84,0.1804,0.2188,529,540,3703.7,0.7464,1.6027,579,590,3050.85,0.2194,0.5296
431,442,5946.99,0.7098,2.1351,481,492,4674.8,0.2625,0.272,531,542,3772.04,0.6538,1.4495,581,592,3108.11,0.2265,0.5304
433,444,6048.91,0.6889,1.8758,483,494,4757.09,0.1902,0.352,533,544,3839.87,0.5418,1.3324,583,594,3164.98,0.2344,0.5359
435,446,6149.9,0.7876,1.7264,485,496,4838.71,0.2114,0.3695,535,546,3907.2,0.4551,1.2657,585,596,3221.48,0.2349,0.542
437,448,6250,0.6590,1.7516,487,498,4919.68,0.2561,0.3619,537,548,3974.05,0.4079,1.233,587,598,3277.59,0.2371,0.546
439,450,6349.21,0.4416,1.8450,489,500,5000,0.2252,0.4035,539,550,4040.4,0.3711,1.2254,589,600,3333.33,0.235,0.5427
441,452,6447.53,0.4190,1.7222,491,502,5079.68,0.4284,0.4692,541,552,4106.28,0.3299,1.1784,591,602,3388.7,0.2358,0.5414
443,454,6545,0.6765,1.9345,493,504,5158.73,0.2995,0.5399,543,554,4171.68,0.285,1.1144,593,604,3443.71,0.2425,0.5434
445,456,6641.6,0.4749,1.7978,495,506,5237.15,0.3911,0.4767,545,556,4236.61,0.2506,1.0656,595,606,3498.35,0.25,0.5476
447,458,6737.37,0.5702,1.6682,497,508,5314.96,0.4632,0.6816,547,558,4301.08,0.2556,1.0378,597,608,3552.63,0.2448,0.541
449,460,6832.3,0.5951,1.5887,499,510,5392.16,0.3602,0.6642,549,560,4365.08,0.249,1.021,599,610,3606.56,0.2188,0.5138
,,,,,,,,,,,,,,,601,612,3660.13,0.1906,0.4841
,,,,,,,,,,,,,,,603,614,3713.36,0.1799,0.4594
,,,,,,,,,,,,,,,605,616,3766.23,0.1791,0.4325
,,,,,,,,,,,,,,,607,618,3818.77,0.1594,0.3886
,,,,,,,,,,,,,,,609,620,3870.97,0.1046,0.3415
,,,,,,,,,,,,,,,611,622,3922.83,0.051,0.314
,,,,,,,,,,,,,,,613,624,3974.36,0.0191,0.3043
,,,,,,,,,,,,,,,615,626,4025.56,0.0145,0.3058
,,,,,,,,,,,,,,,617,628,4076.43,0.0158,0.3023
,,,,,,,,,,,,,,,619,630,4126.98,0.0174,0.2998
,,,,,,,,,,,,,,,621,632,4177.22,0.0204,0.2984
,,,,,,,,,,,,,,,623,634,4227.13,0.0214,0.3034
,,,,,,,,,,,,,,,625,636,4276.73,0.0273,0.3106
,,,,,,,,,,,,,,,627,638,4326.02,0.0354,0.3175
,,,,,,,,,,,,,,,629,640,4375,0.043,0.3231
,,,,,,,,,,,,,,,631,642,4423.68,0.0473,0.3289
,,,,,,,,,,,,,,,633,644,4472.05,0.0469,0.3351
,,,,,,,,,,,,,,,635,646,4520.12,0.047,0.3363
,,,,,,,,,,,,,,,637,648,4567.9,0.0463,0.3371
,,,,,,,,,,,,,,,639,650,4615.38,0.0459,0.3421
,,,,,,,,,,,,,,,641,652,4662.58,0.047,0.3488
,,,,,,,,,,,,,,,643,654,4709.48,0.0521,0.3525
,,,,,,,,,,,,,,,645,656,4756.1,0.0542,0.3601
,,,,,,,,,,,,,,,647,658,4802.43,0.0596,0.3703
,,,,,,,,,,,,,,,649,660,4848.48,0.0628,0.385
,,,,,,,,,,,,,,,650,661,4871.41,0.073,0.393