Folder: Laboratorio-Avancado/Espectroscopia Raman/Data

Note: README.md
# Laboratorio_Avancado_7600024
 
Neste repositório estão armazenados as apresentações e códigos elaborados na disciplina de Laboratório Avançado I (7600024), oferecida pelo IFSC.

Os experimentos realizados foram:
1. Espectroscopia Óptica - Raman
2. Ressonância Paramagnética Eletrônica
3. Velocidade da Luz
4. Franck-Hertz
5. Emissão Termoiônica

Em cada uma das pastas das práticas, você encontrará: 
- as apresentações antes e depois da realização do experimento;
- um jupyter notebook contendo a análise dos dados obtidos e a elaboração dos gráficos;
- uma pasta nomeada "csv data" contendo os arquivos necessários para rodar o jupyter notebook correspondente.

Para rodar os notebooks, basta importar todos os arquivos contendo os dados na mesma pasta que o notebook e executá-lo.

File: Dados - 1303 - agua destilada.csv
comp(1),comp_corrected(1),raman_shift(1),vidro(ex 350 5-5),plastico(ex 350 5-5),comp(2),comp_corrected(2),raman_shift(2),vidro(ex 400 5-5),plastico(ex 400 5-5),comp(3),comp_corrected(3),raman_shift(3),vidro(ex 450 10-10),plastico(ex 450 10-10),comp(4),comp_corrected(4),raman_shift(4),vidro(ex 500 10-10),plastico(ex 500 10-10)
250,261,-9742.75,0.338,0.687,300,311,-13314.2,0.273,0.609,350,361,-16092,0.592,1.184,450,461,-18314.2,0.248,1.097
253,264,-9307.36,0.3965,0.6944,303,314,-12878.8,0.336,0.5491,353,364,-15656.6,0.6738,1.3124,453,464,-17878.8,0.2366,1.1206
256,267,-8881.75,0.295,0.6953,306,317,-12453.2,0.1748,0.6314,356,367,-15231,0.6877,1.3292,456,467,-17453.2,0.2442,1.1572
259,270,-8465.61,0.1696,0.6393,309,320,-12037,0.3797,0.6097,359,370,-14814.8,0.6928,1.3892,459,470,-17037,0.2497,1.1956
262,273,-8058.61,0.1846,0.8686,312,323,-11630,0.2505,0.5568,362,373,-14407.8,0.7063,1.4468,462,473,-16630,0.2554,1.2287
265,276,-7660.46,0.5312,0.7833,315,326,-11231.9,0.2944,0.6134,365,376,-14009.7,0.7093,1.4277,465,476,-16231.9,0.2555,1.3193
268,279,-7270.87,0.3001,0.7174,318,329,-10842.3,0.337,0.5677,368,379,-13620.1,0.7183,1.4305,468,479,-15842.3,0.2422,1.3702
271,282,-6889.56,0.1816,0.6046,321,332,-10461,0.2169,0.6229,371,382,-13238.8,0.7245,1.4141,471,482,-15461,0.3315,1.6634
274,285,-6516.29,0.2308,0.6348,324,335,-10087.7,0.3736,0.6256,374,385,-12865.5,0.7109,1.4932,474,485,-15087.7,1.6683,7.6264
277,288,-6150.79,0.2915,0.7064,327,338,-9722.22,0.3944,0.606,377,388,-12500,0.6855,1.6035,477,488,-14722.2,7.6345,37.3406
280,291,-5792.83,0.3758,0.7248,330,341,-9364.26,0.3219,0.6327,380,391,-12142,0.7131,1.6312,480,491,-14364.3,23.1638,122.3994
283,294,-5442.18,0.1039,0.7668,333,344,-9013.61,0.317,0.5497,383,394,-11791.4,0.7336,1.6317,483,494,-14013.6,49.2814,281.2699
286,297,-5098.61,0.2299,0.6104,336,347,-8670.03,0.3525,0.5785,386,397,-11447.8,0.7013,1.6982,486,497,-13670,78.1685,484.6769
289,300,-4761.9,0.3599,0.6243,339,350,-8333.33,0.353,0.5521,389,400,-11111.1,0.6987,1.7737,489,500,-13333.3,95.0055,638.6647
292,303,-4431.87,0.3748,0.6677,342,353,-8003.3,0.3923,0.5834,392,403,-10781.1,0.705,1.7687,492,503,-13003.3,88.8758,649.6213
295,306,-4108.31,0.4572,0.8643,345,356,-7679.74,0.4308,0.6229,395,406,-10457.5,0.708,1.7676,495,506,-12679.7,63.9189,507.9537
298,309,-3791.03,0.2782,0.8678,348,359,-7362.46,0.3702,0.6413,398,409,-10140.2,0.682,1.8826,498,509,-12362.5,34.7077,295.7157
301,312,-3479.85,0.1566,0.8649,351,362,-7051.28,0.4062,0.6401,401,412,-9829.06,0.6874,1.9867,501,512,-12051.3,13.2839,120.0407
304,315,-3174.6,0.377,0.6978,354,365,-6746.03,0.4541,0.5366,404,415,-9523.81,0.7291,2.103,504,515,-11746,3.0798,28.6725
307,318,-2875.11,0.2224,0.7807,357,368,-6446.54,0.416,0.7951,407,418,-9224.32,0.7054,2.1943,507,518,-11446.5,0.3703,2.5887
310,321,-2581.22,0.3916,0.9111,360,371,-6152.65,0.4499,0.6394,410,421,-8930.43,0.7068,2.3704,510,521,-11152.6,0.1993,0.7443
313,324,-2292.77,0.3472,0.966,363,374,-5864.2,0.4974,0.6766,413,424,-8641.98,0.7231,2.5446,513,524,-10864.2,0.2608,1.1714
316,327,-2009.61,0.3774,1.1539,366,377,-5581.04,0.4811,0.5878,416,427,-8358.82,0.7582,2.6148,516,527,-10581,0.2488,1.0914
319,330,-1731.6,0.3604,1.1714,369,380,-5303.03,0.467,0.809,419,430,-8080.81,0.7538,2.5815,519,530,-10303,0.2313,0.9948
322,333,-1458.6,0.5469,1.3944,372,383,-5030.03,0.4992,0.8797,422,433,-7807.81,0.9018,3.0823,522,533,-10030,0.224,0.9134
325,336,-1190.48,0.492,1.4833,375,386,-4761.9,0.4504,1.2003,425,436,-7539.68,4.4906,17.401,525,536,-9761.9,0.235,0.8749
328,339,-927.097,0.4878,1.7498,378,389,-4498.53,0.5103,1.3219,428,439,-7276.3,21.2331,90.0505,528,539,-9498.53,0.1619,0.8234
331,342,-668.338,1.3514,7.6647,381,392,-4239.77,4.7821,18.3244,431,442,-7017.54,63.0565,289.7697,531,542,-9239.77,0.1119,0.7557
334,345,-414.079,18.3775,115.0942,384,395,-3985.51,50.2286,177.6749,434,445,-6763.29,132.1681,652.3654,534,545,-8985.51,0.1216,0.7097
337,348,-164.204,72.5619,494.6991,387,398,-3735.63,138.8358,492.3783,437,448,-6513.41,203.7832,952.8144,537,548,-8735.63,0.1008,0.6837
340,351,81.4001,97.9502,706.2628,390,401,-3490.03,146.7455,523.5177,440,451,-6267.81,239.439,999.999,540,551,-8490.03,0.1588,0.71
343,354,322.841,49.5161,361.346,393,404,-3248.59,59.282,209.7834,443,454,-6026.37,221.1162,999.999,543,554,-8248.59,0.2061,0.6868
346,357,560.224,8.8102,67.3424,396,407,-3011.2,7.2406,26.3046,446,457,-5788.98,157.6821,897.2839,546,557,-8011.2,0.173,0.6164
349,360,793.651,0.6151,2.1514,399,410,-2777.78,0.583,1.4265,449,460,-5555.56,85.0612,547.7076,549,560,-7777.78,0.1445,0.5896
352,363,1023.22,0.7407,2.0995,402,413,-2548.21,0.5959,1.4209,452,463,-5325.99,33.968,217.4979,552,563,-7548.21,0.1375,0.5637
355,366,1249.02,0.6541,2.0845,405,416,-2322.4,0.4858,1.35,455,466,-5100.18,8.7803,56.2959,555,566,-7322.4,0.127,0.5522
358,369,1471.16,0.5493,1.7629,408,419,-2100.27,0.5499,1.1471,458,469,-4878.05,1.3832,7.0631,558,569,-7100.27,0.1207,0.5409
361,372,1689.71,0.6944,1.886,411,422,-1881.72,0.4022,1.3015,461,472,-4659.5,0.6169,1.7442,561,572,-6881.72,0.1205,0.5342
364,375,1904.76,0.7285,1.8657,414,425,-1666.67,0.5308,1.1192,464,475,-4444.44,0.723,2.5069,564,575,-6666.67,0.1327,0.5293
367,378,2116.4,0.6418,1.8006,417,428,-1455.03,0.5474,0.6993,467,478,-4232.8,0.6845,2.3433,567,578,-6455.03,0.1602,0.5335
370,381,2324.71,0.6743,1.7893,420,431,-1246.72,0.4056,0.7561,470,481,-4024.5,0.6603,2.22,570,581,-6246.72,0.1801,0.5338
373,384,2529.76,0.6944,1.7684,423,434,-1041.67,0.2121,0.6293,473,484,-3819.44,0.6584,2.2018,573,584,-6041.67,0.1895,0.5309
376,387,2731.64,0.7324,2.041,426,437,-839.793,0.1138,0.803,476,487,-3617.57,0.6471,2.1457,576,587,-5839.79,0.2,0.5349
379,390,2930.4,0.9413,2.2047,429,440,-641.026,0.3654,0.6089,479,490,-3418.8,0.5957,2.0096,579,590,-5641.03,0.2194,0.5296
382,393,3126.14,1.8987,2.4971,432,443,-445.293,0.4022,0.7064,482,493,-3223.07,0.5361,1.8728,582,593,-5445.29,0.2302,0.5355
385,396,3318.9,2.3076,3.7876,435,446,-252.525,0.4542,0.8464,485,496,-3030.3,0.5218,1.7796,585,596,-5252.53,0.2349,0.542
388,399,3508.77,2.0854,3.3656,438,449,-62.6566,0.3727,0.6247,488,499,-2840.43,0.4968,1.6646,588,599,-5062.66,0.2362,0.5464
391,402,3695.81,1.8247,2.5038,441,452,124.378,0.4079,0.6889,491,502,-2653.4,0.4617,1.6459,591,602,-4875.62,0.2358,0.5414
394,405,3880.07,1.0916,2.0834,444,455,308.642,0.399,1.1004,494,505,-2469.14,0.45,1.6237,594,605,-4691.36,0.2464,0.5488
397,408,4061.62,0.6854,2.0128,447,458,490.196,0.8557,1.181,497,508,-2287.58,0.4449,1.5729,597,608,-4509.8,0.2448,0.541
400,411,4240.53,0.8239,2.1232,450,461,669.1,1.2048,1.5093,500,511,-2108.68,0.4298,1.5641,600,611,-4330.9,0.2057,0.4985
403,414,4416.84,0.6945,2.0651,453,464,845.411,1.1538,1.5998,503,514,-1932.37,0.4725,1.5274,603,614,-4154.59,0.1799,0.4594
406,417,4590.61,0.8223,2.0876,456,467,1019.18,0.819,1.3988,506,517,-1758.59,0.5413,1.5317,606,617,-3980.82,0.175,0.4146
409,420,4761.9,0.7981,2.1205,459,470,1190.48,0.4709,0.8447,509,520,-1587.3,0.672,1.5532,609,620,-3809.52,0.1046,0.3415
412,423,4930.77,0.7366,2.1077,462,473,1359.34,0.3707,0.6463,512,523,-1418.44,0.7769,1.6561,612,623,-3640.66,0.0326,0.3065
415,426,5097.25,0.6785,2.041,465,476,1525.82,0.3741,0.4404,515,526,-1251.96,0.8807,1.7553,615,626,-3474.18,0.0145,0.3058
418,429,5261.41,0.8079,1.998,468,479,1689.98,0.5164,0.6897,518,529,-1087.8,0.956,1.8556,618,629,-3310.02,0.0159,0.3004
421,432,5423.28,0.7267,1.9311,471,482,1851.85,0.2794,0.4703,521,532,-925.926,0.9652,1.8291,621,632,-3148.15,0.0204,0.2984
424,435,5582.92,0.4342,1.6535,474,485,2011.49,0.357,0.2634,524,535,-766.284,0.9002,1.7857,624,635,-2988.51,0.0244,0.3073
427,438,5740.38,0.1776,1.6475,477,488,2168.95,0.1848,0.2447,527,538,-608.828,0.8132,1.7276,627,638,-2831.05,0.0354,0.3175
430,441,5895.69,0.6212,2.0869,480,491,2324.26,0.2262,0.275,530,541,-453.515,0.6931,1.5401,630,641,-2675.74,0.045,0.3263
433,444,6048.91,0.6889,1.8758,483,494,2477.48,0.1902,0.352,533,544,-300.3,0.5418,1.3324,633,644,-2522.52,0.0469,0.3351
436,447,6200.06,0.7144,1.7472,486,497,2628.64,0.2657,0.3438,536,547,-149.142,0.4155,1.2499,636,647,-2371.36,0.0448,0.3371
439,450,6349.21,0.4416,1.845,489,500,2777.78,0.2252,0.4035,539,550,0,0.3711,1.2254,639,650,-2222.22,0.0459,0.3421
442,453,6496.37,0.5831,1.8161,492,503,2924.94,0.4243,0.5696,542,553,147.167,0.3008,1.1456,642,653,-2075.06,0.049,0.3526
445,456,6641.6,0.4749,1.7978,495,506,3070.18,0.3911,0.4767,545,556,292.398,0.2506,1.0656,645,656,-1929.82,0.0542,0.3601
448,459,6784.94,0.602,1.6446,498,509,3213.51,0.3846,0.6743,548,559,435.73,0.2579,1.0443,648,659,-1786.49,0.0599,0.3756
450,461,6879.45,0.765,1.165,500,511,3308.03,0.33,0.686,550,561,530.248,0.25,1.051,650,661,-1691.97,0.073,0.393